Folder: atom/ATOM_scripts_lecture/CLAYFF_3W_NaMMT/MMT_clayff

Note: README.md
# atom
Matlab scripts for reading/writing/creating/manipulating molecular systems

File: xrd.dat
2	20.163
2.2	16.996
2.4	14.575
2.6	12.684
2.8	11.178
3	9.9606
3.2	8.9639
3.4	8.1388
3.6	7.4499
3.8	6.8707
4	6.3814
4.2	5.967
4.4	5.6161
4.6	5.3199
4.8	5.0722
5	4.8685
5.2	4.7061
5.4	4.5842
5.6	4.5046
5.8	4.472
6	4.4951
6.2	4.5809
6.4	4.7158
6.6	4.9039
6.8	5.1918
7	5.577
7.2	6.1474
7.4	7.042
7.6	8.4194
7.8	10.68
8	14.427
8.2	20.111
8.4	25.778
8.6	25.055
8.8	18.383
9	12.415
9.2	8.7753
9.4	6.8173
9.6	6.2017
9.8	8.3683
10	6.6344
10.2	5.4622
10.4	4.6403
10.6	3.9645
10.8	3.6585
11	3.3892
11.2	3.2716
11.4	3.4482
11.6	3.1054
11.8	3.0247
12	3.1057
12.2	3.3443
12.4	3.6513
12.6	3.7918
12.8	3.9246
13	3.7818
13.2	3.4409
13.4	3.1156
13.6	2.9789
13.8	2.8257
14	2.7972
14.2	2.7972
14.4	2.7903
14.6	2.8788
14.8	3.2732
15	3.5038
15.2	3.4163
15.4	3.2227
15.6	3.3586
15.8	3.7432
16	4.0379
16.2	4.3228
16.4	4.9
16.6	5.748
16.8	6.8918
17	7.7995
17.2	7.8762
17.4	6.9831
17.6	6.1082
17.8	5.6832
18	5.6052
18.2	5.7904
18.4	6.0577
18.6	6.8029
18.8	7.9946
19	9.3757
19.2	12.342
19.4	18.822
19.6	37.07
19.8	92.088
20	63.343
20.2	33.369
20.4	26.142
20.6	23.85
20.8	22.448
21	19.724
21.2	17.125
21.4	15.246
21.6	14.198
21.8	13.055
22	12.343
22.2	12.709
22.4	13.785
22.6	13.904
22.8	12.385
23	10.358
23.2	9.0011
23.4	8.5039
23.6	8.3633
23.8	7.749
24	7.0194
24.2	6.5705
24.4	6.5909
24.6	6.8102
24.8	7.0556
25	7.3636
25.2	6.8783
25.4	6.3851
25.6	6.278
25.8	6.3494
26	6.3912
26.2	6.4017
26.4	6.2574
26.6	5.771
26.8	5.1298
27	4.8005
27.2	4.8387
27.4	5.2845
27.6	5.728
27.8	6.1138
28	5.3925
28.2	5.0654
28.4	4.8873
28.6	4.5626
28.8	4.6151
29	4.5516
29.2	4.6744
29.4	4.8675
29.6	5.1511
29.8	5.5522
30	5.788
30.2	5.7209
30.4	5.59
30.6	5.4808
30.8	5.4612
31	5.371
31.2	5.0533
31.4	4.6286
31.6	4.315
31.8	4.2459
32	4.4154
32.2	4.8272
32.4	4.7826
32.6	4.8755
32.8	4.9591
33	4.9945
33.2	4.9259
33.4	5.0179
33.6	4.9521
33.8	5.1452
34	5.7018
34.2	6.5766
34.4	7.5647
34.6	8.9385
34.8	9.676
35	10.01
35.2	10.594
35.4	10.77
35.6	10.629
35.8	10.432
36	10.448
36.2	10.532
36.4	10.312
36.6	9.5415
36.8	8.5746
37	7.7352
37.2	7.0379
37.4	6.6152
37.6	6.5159
37.8	6.5429
38	6.3837
38.2	5.8942
38.4	5.3086
38.6	4.8752
38.8	4.6114
39	4.5034
39.2	4.4385
39.4	4.3441
39.6	4.4304
39.8	4.6582
40	4.9394
40.2	5.4201
40.4	5.419
40.6	4.4518
40.8	3.9975
41	3.7441
41.2	3.6163
41.4	3.5559
41.6	3.6164
41.8	3.7656
42	3.965
42.2	4.0652
42.4	4.0053
42.6	3.7336
42.8	3.4155
43	3.1659
43.2	2.9963
43.4	2.8768
43.6	2.8212
43.8	2.7826
44	2.7439
44.2	2.7123
44.4	2.6893
44.6	2.7348
44.8	2.8166
45	2.8745
45.2	2.8076
45.4	2.6283
45.6	2.423
45.8	2.2682
46	2.1764
46.2	2.1645
46.4	2.2075
46.6	2.2152
46.8	2.1652
47	2.1633
47.2	2.163
47.4	2.1211
47.6	2.0789
47.8	2.0709
48	2.0644
48.2	2.0346
48.4	1.9563
48.6	1.8564
48.8	1.7645
49	1.7131
49.2	1.7028
49.4	1.7288
49.6	1.7599
49.8	1.7515
50	1.7065
50.2	1.6284
50.4	1.567
50.6	1.5515
50.8	1.5741
51	1.6348
51.2	1.7142
51.4	1.7728
51.6	1.7514
51.8	1.6557
52	1.5781
52.2	1.5414
52.4	1.5325
52.6	1.5441
52.8	1.5625
53	1.6182
53.2	1.7042
53.4	1.8235
53.6	2.019
53.8	2.377
54	3.0448
54.2	3.6611
54.4	3.3046
54.6	2.9587
54.8	2.8175
55	2.7447
55.2	2.6967
55.4	2.6547
55.6	2.5876
55.8	2.4757
56	2.3593
56.2	2.2596
56.4	2.1786
56.6	2.1019
56.8	2.0222
57	1.94
57.2	1.8652
57.4	1.7776
57.6	1.6712
57.8	1.5722
58	1.4779
58.2	1.3827
58.4	1.2946
58.6	1.213
58.8	1.1504
59	1.113
59.2	1.0975
59.4	1.105
59.6	1.1313
59.8	1.1346
60	1.141